File: S0_Raman_center_2700.txt
2204.67	1655
2205.67	1617
2206.68	1601
2207.68	1598
2208.68	1607
2209.69	1605
2210.69	1628
2211.7	1597
2212.7	1603
2213.7	1619
2214.71	1621
2215.71	1599
2216.71	1613
2217.72	1570
2218.72	1616
2219.72	1612
2220.72	1579
2221.73	1563
2222.73	1598
2223.73	1599
2224.73	1596
2225.73	1613
2226.73	1583
2227.74	1606
2228.74	1590
2229.74	1580
2230.74	1554
2231.74	1556
2232.74	1608
2233.74	1582
2234.74	1602
2235.74	1566
2236.74	1627
2237.74	1585
2238.74	1581
2239.74	1551
2240.74	1571
2241.74	1562
2242.74	1603
2243.74	1597
2244.74	1540
2245.74	1549
2246.74	1616
2247.74	1603
2248.74	1572
2249.73	1575
2250.73	1584
2251.73	1559
2252.73	1590
2253.73	1569
2254.73	1591
2255.72	1594
2256.72	1577
2257.72	1578
2258.72	1570
2259.71	1588
2260.71	1621
2261.71	1582
2262.7	1570
2263.7	1597
2264.7	1560
2265.69	1588
2266.69	1595
2267.68	1578
2268.68	1597
2269.68	1564
2270.67	1564
2271.67	1542
2272.66	1579
2273.66	1593
2274.65	1584
2275.65	1581
2276.64	1589
2277.64	1549
2278.63	1580
2279.63	1585
2280.62	1568
2281.61	1519
2282.61	1580
2283.6	1576
2284.6	1561
2285.59	1562
2286.58	1571
2287.58	1591
2288.57	1586
2289.56	1561
2290.56	1538
2291.55	1582
2292.54	1543
2293.53	1583
2294.53	1550
2295.52	1590
2296.51	1552
2297.5	1540
2298.49	1580
2299.49	1541
2300.48	1612
2301.47	1601
2302.46	1585
2303.45	1543
2304.44	1539
2305.43	1544
2306.42	1580
2307.42	1569
2308.41	1537
2309.4	1595
2310.39	1572
2311.38	1564
2312.37	1567
2313.36	1542
2314.35	1562
2315.34	1581
2316.32	1552
2317.31	1613
2318.3	1566
2319.29	1547
2320.28	1598
2321.27	1564
2322.26	1563
2323.25	1546
2324.24	1578
2325.22	1574
2326.21	1585
2327.2	1577
2328.19	1578
2329.17	1619
2330.16	1600
2331.15	1579
2332.14	1573
2333.12	1589
2334.11	1592
2335.1	1597
2336.08	1570
2337.07	1550
2338.06	1556
2339.04	1544
2340.03	1561
2341.02	1551
2342	1561
2342.99	1577
2343.97	1544
2344.96	1563
2345.94	1549
2346.93	1559
2347.92	1546
2348.9	1544
2349.88	1604
2350.87	1567
2351.85	1528
2352.84	1560
2353.82	1567
2354.81	1539
2355.79	1558
2356.78	1563
2357.76	1575
2358.74	1559
2359.73	1559
2360.71	1550
2361.69	1569
2362.68	1571
2363.66	1567
2364.64	1559
2365.62	1544
2366.61	1555
2367.59	1576
2368.57	1563
2369.55	1545
2370.54	1553
2371.52	1598
2372.5	1554
2373.48	1526
2374.46	1576
2375.44	1557
2376.43	1542
2377.41	1568
2378.39	1558
2379.37	1525
2380.35	1544
2381.33	1556
2382.31	1549
2383.29	1538
2384.27	1557
2385.25	1519
2386.23	1545
2387.21	1555
2388.19	1564
2389.17	1570
2390.15	1548
2391.13	1563
2392.11	1546
2393.09	1551
2394.06	1537
2395.04	1530
2396.02	1551
2397	1569
2397.98	1516
2398.96	1532
2399.94	1539
2400.91	1532
2401.89	1549
2402.87	1541
2403.85	1550
2404.82	1562
2405.8	1528
2406.78	1538
2407.75	1542
2408.73	1554
2409.71	1544
2410.69	1546
2411.66	1563
2412.64	1552
2413.61	1543
2414.59	1514
2415.57	1545
2416.54	1555
2417.52	1530
2418.49	1534
2419.47	1575
2420.44	1561
2421.42	1580
2422.39	1523
2423.37	1539
2424.34	1545
2425.32	1527
2426.29	1537
2427.27	1574
2428.24	1553
2429.22	1576
2430.19	1544
2431.16	1524
2432.14	1541
2433.11	1557
2434.08	1539
2435.06	1543
2436.03	1563
2437	1578
2437.98	1545
2438.95	1560
2439.92	1528
2440.89	1522
2441.87	1533
2442.84	1579
2443.81	1532
2444.78	1533
2445.76	1493
2446.73	1541
2447.7	1536
2448.67	1552
2449.64	1550
2450.61	1566
2451.58	1524
2452.55	1539
2453.53	1549
2454.5	1585
2455.47	1519
2456.44	1571
2457.41	1567
2458.38	1530
2459.35	1533
2460.32	1528
2461.29	1560
2462.26	1548
2463.23	1569
2464.2	1543
2465.16	1549
2466.13	1559
2467.1	1590
2468.07	1524
2469.04	1526
2470.01	1562
2470.98	1533
2471.95	1551
2472.91	1567
2473.88	1568
2474.85	1557
2475.82	1540
2476.79	1573
2477.75	1563
2478.72	1562
2479.69	1548
2480.65	1533
2481.62	1548
2482.59	1560
2483.56	1562
2484.52	1549
2485.49	1552
2486.46	1524
2487.42	1555
2488.39	1570
2489.35	1533
2490.32	1583
2491.28	1546
2492.25	1549
2493.22	1576
2494.18	1569
2495.15	1565
2496.11	1538
2497.08	1507
2498.04	1567
2499.01	1572
2499.97	1516
2500.94	1540
2501.9	1585
2502.86	1526
2503.83	1515
2504.79	1532
2505.76	1525
2506.72	1527
2507.68	1533
2508.65	1558
2509.61	1544
2510.57	1573
2511.54	1541
2512.5	1530
2513.46	1539
2514.42	1535
2515.39	1528
2516.35	1545
2517.31	1547
2518.27	1545
2519.23	1512
2520.2	1558
2521.16	1572
2522.12	1563
2523.08	1551
2524.04	1559
2525	1550
2525.96	1544
2526.93	1517
2527.89	1511
2528.85	1519
2529.81	1540
2530.77	1539
2531.73	1556
2532.69	1561
2533.65	1519
2534.61	1539
2535.57	1519
2536.53	1513
2537.49	1516
2538.45	1521
2539.41	1545
2540.36	1536
2541.32	1542
2542.28	1542
2543.24	1515
2544.2	1546
2545.16	1520
2546.12	1530
2547.08	1532
2548.03	1551
2548.99	1543
2549.95	1519
2550.91	1571
2551.86	1556
2552.82	1502
2553.78	1526
2554.74	1553
2555.69	1511
2556.65	1535
2557.61	1543
2558.56	1559
2559.52	1555
2560.48	1553
2561.43	1530
2562.39	1539
2563.35	1553
2564.3	1532
2565.26	1555
2566.21	1558
2567.17	1542
2568.12	1534
2569.08	1540
2570.03	1564
2570.99	1543
2571.94	1540
2572.9	1531
2573.85	1524
2574.81	1554
2575.76	1520
2576.72	1522
2577.67	1508
2578.62	1540
2579.58	1526
2580.53	1526
2581.49	1540
2582.44	1513
2583.39	1543
2584.35	1512
2585.3	1530
2586.25	1530
2587.2	1519
2588.16	1539
2589.11	1554
2590.06	1505
2591.01	1552
2591.97	1524
2592.92	1535
2593.87	1546
2594.82	1530
2595.77	1520
2596.73	1572
2597.68	1516
2598.63	1548
2599.58	1500
2600.53	1541
2601.48	1575
2602.43	1523
2603.38	1515
2604.33	1519
2605.28	1527
2606.23	1543
2607.18	1519
2608.14	1524
2609.08	1538
2610.03	1525
2610.98	1497
2611.93	1535
2612.88	1542
2613.83	1543
2614.78	1539
2615.73	1549
2616.68	1519
2617.63	1506
2618.58	1513
2619.53	1540
2620.47	1540
2621.42	1530
2622.37	1559
2623.32	1525
2624.27	1510
2625.21	1549
2626.16	1559
2627.11	1552
2628.06	1531
2629	1513
2629.95	1542
2630.9	1554
2631.84	1533
2632.79	1568
2633.74	1534
2634.68	1532
2635.63	1539
2636.58	1532
2637.52	1535
2638.47	1516
2639.42	1503
2640.36	1521
2641.31	1540
2642.25	1547
2643.2	1553
2644.14	1506
2645.09	1553
2646.03	1526
2646.98	1511
2647.92	1545
2648.87	1545
2649.81	1542
2650.76	1567
2651.7	1584
2652.64	1530
2653.59	1553
2654.53	1568
2655.48	1521
2656.42	1554
2657.36	1556
2658.31	1544
2659.25	1546
2660.19	1537
2661.14	1534
2662.08	1591
2663.02	1600
2663.96	1526
2664.91	1536
2665.85	1549
2666.79	1513
2667.73	1544
2668.67	1548
2669.62	1541
2670.56	1538
2671.5	1595
2672.44	1557
2673.38	1547
2674.32	1544
2675.26	1595
2676.21	1537
2677.15	1570
2678.09	1535
2679.03	1559
2679.97	1552
2680.91	1567
2681.85	1546
2682.79	1569
2683.73	1557
2684.67	1550
2685.61	1570
2686.55	1543
2687.49	1553
2688.43	1578
2689.37	1584
2690.31	1563
2691.24	1586
2692.18	1565
2693.12	1587
2694.06	1572
2695	1588
2695.94	1572
2696.88	1564
2697.81	1540
2698.75	1578
2699.69	1627
2700.63	1586
2701.56	1573
2702.5	1636
2703.44	1587
2704.38	1577
2705.31	1628
2706.25	1603
2707.19	1590
2708.12	1563
2709.06	1601
2710	1578
2710.93	1575
2711.87	1629
2712.81	1635
2713.74	1643
2714.68	1661
2715.61	1637
2716.55	1618
2717.48	1633
2718.42	1606
2719.36	1611
2720.29	1632
2721.23	1651
2722.16	1639
2723.09	1620
2724.03	1646
2724.96	1616
2725.9	1651
2726.83	1647
2727.77	1689
2728.7	1639
2729.63	1656
2730.57	1657
2731.5	1675
2732.44	1648
2733.37	1675
2734.3	1690
2735.24	1641
2736.17	1659
2737.1	1658
2738.03	1674
2738.97	1655
2739.9	1655
2740.83	1651
2741.76	1638
2742.7	1689
2743.63	1672
2744.56	1617
2745.49	1658
2746.42	1651
2747.35	1693
2748.29	1664
2749.22	1651
2750.15	1659
2751.08	1625
2752.01	1647
2752.94	1643
2753.87	1678
2754.8	1655
2755.73	1671
2756.66	1621
2757.59	1613
2758.52	1635
2759.45	1630
2760.38	1637
2761.31	1597
2762.24	1618
2763.17	1641
2764.1	1632
2765.03	1615
2765.96	1610
2766.89	1648
2767.82	1558
2768.75	1597
2769.67	1574
2770.6	1572
2771.53	1597
2772.46	1579
2773.39	1597
2774.31	1595
2775.24	1592
2776.17	1676
2777.1	1573
2778.03	1592
2778.95	1599
2779.88	1583
2780.81	1561
2781.73	1556
2782.66	1580
2783.59	1569
2784.51	1571
2785.44	1575
2786.37	1591
2787.29	1553
2788.22	1533
2789.15	1585
2790.07	1529
2791	1574
2791.92	1505
2792.85	1539
2793.77	1575
2794.7	1501
2795.62	1538
2796.55	1564
2797.47	1565
2798.4	1546
2799.32	1552
2800.25	1678
2801.17	1551
2802.1	1515
2803.02	1516
2803.94	1559
2804.87	1522
2805.79	1511
2806.72	1566
2807.64	1555
2808.56	1485
2809.49	1560
2810.41	1535
2811.33	1527
2812.26	1523
2813.18	1510
2814.1	1530
2815.02	1536
2815.95	1539
2816.87	1496
2817.79	1518
2818.71	1517
2819.63	1531
2820.56	1522
2821.48	1522
2822.4	1537
2823.32	1507
2824.24	1524
2825.16	1519
2826.08	1510
2827.01	1545
2827.93	1513
2828.85	1543
2829.77	1523
2830.69	1507
2831.61	1523
2832.53	1540
2833.45	1519
2834.37	1524
2835.29	1530
2836.21	1539
2837.13	1525
2838.05	1506
2838.97	1515
2839.89	1513
2840.81	1526
2841.73	1550
2842.64	1524
2843.56	1507
2844.48	1521
2845.4	1494
2846.32	1502
2847.24	1501
2848.16	1493
2849.07	1520
2849.99	1519
2850.91	1520
2851.83	1539
2852.74	1531
2853.66	1548
2854.58	1513
2855.5	1521
2856.41	1493
2857.33	1518
2858.25	1480
2859.16	1533
2860.08	1490
2861	1511
2861.91	1525
2862.83	1480
2863.75	1546
2864.66	1503
2865.58	1476
2866.49	1555
2867.41	1531
2868.33	1529
2869.24	1507
2870.16	1539
2871.07	1543
2871.99	1524
2872.9	1531
2873.82	1510
2874.73	1550
2875.65	1530
2876.56	1522
2877.47	1527
2878.39	1528
2879.3	1507
2880.22	1506
2881.13	1511
2882.04	1517
2882.96	1548
2883.87	1508
2884.78	1516
2885.7	1529
2886.61	1517
2887.52	1496
2888.44	1527
2889.35	1513
2890.26	1521
2891.17	1516
2892.09	1501
2893	1578
2893.91	1512
2894.82	1521
2895.74	1498
2896.65	1524
2897.56	1513
2898.47	1516
2899.38	1551
2900.29	1514
2901.21	1523
2902.12	1503
2903.03	1524
2903.94	1531
2904.85	1511
2905.76	1517
2906.67	1532
2907.58	1531
2908.49	1535
2909.4	1505
2910.31	1512
2911.22	1496
2912.13	1516
2913.04	1547
2913.95	1537
2914.86	1498
2915.77	1551
2916.68	1492
2917.59	1517
2918.5	1509
2919.4	1531
2920.31	1517
2921.22	1506
2922.13	1503
2923.04	1542
2923.95	1540
2924.86	1524
2925.76	1508
2926.67	1532
2927.58	1540
2928.49	1516
2929.39	1547
2930.3	1515
2931.21	1511
2932.12	1528
2933.02	1534
2933.93	1536
2934.84	1505
2935.74	1503
2936.65	1517
2937.56	1516
2938.46	1491
2939.37	1507
2940.28	1512
2941.18	1488
2942.09	1533
2942.99	1514
2943.9	1514
2944.8	1512
2945.71	1527
2946.61	1538
2947.52	1514
2948.42	1505
2949.33	1548
2950.23	1499
2951.14	1510
2952.04	1503
2952.95	1503
2953.85	1515
2954.76	1558
2955.66	1477
2956.56	1520
2957.47	1478
2958.37	1506
2959.28	1518
2960.18	1516
2961.08	1543
2961.99	1504
2962.89	1520
2963.79	1525
2964.7	1507
2965.6	1517
2966.5	1522
2967.4	1522
2968.31	1483
2969.21	1496
2970.11	1522
2971.01	1506
2971.91	1529
2972.82	1519
2973.72	1497
2974.62	1497
2975.52	1494
2976.42	1539
2977.32	1494
2978.23	1508
2979.13	1510
2980.03	1513
2980.93	1495
2981.83	1507
2982.73	1501
2983.63	1501
2984.53	1500
2985.43	1508
2986.33	1522
2987.23	1529
2988.13	1528
2989.03	1503
2989.93	1508
2990.83	1521
2991.73	1528
2992.63	1524
2993.53	1489
2994.43	1502
2995.32	1484
2996.22	1514
2997.12	1513
2998.02	1502
2998.92	1510
2999.82	1479
3000.72	1528
3001.61	1526
3002.51	1505
3003.41	1510
3004.31	1501
3005.21	1524
3006.1	1487
3007	1507
3007.9	1551
3008.79	1532
3009.69	1495
3010.59	1509
3011.49	1503
3012.38	1506
3013.28	1508
3014.18	1517
3015.07	1521
3015.97	1511
3016.86	1502
3017.76	1529
3018.66	1463
3019.55	1487
3020.45	1495
3021.34	1512
3022.24	1509
3023.13	1487
3024.03	1515
3024.92	1513
3025.82	1498
3026.71	1495
3027.61	1508
3028.5	1522
3029.4	1502
3030.29	1511
3031.19	1500
3032.08	1532
3032.97	1517
3033.87	1531
3034.76	1486
3035.66	1501
3036.55	1478
3037.44	1508
3038.34	1501
3039.23	1516
3040.12	1504
3041.01	1535
3041.91	1539
3042.8	1494
3043.69	1495
3044.59	1506
3045.48	1500
3046.37	1510
3047.26	1554
3048.15	1494
3049.05	1494
3049.94	1512
3050.83	1502
3051.72	1501
3052.61	1503
3053.5	1477
3054.4	1499
3055.29	1564
3056.18	1530
3057.07	1523
3057.96	1504
3058.85	1503
3059.74	1486
3060.63	1526
3061.52	1521
3062.41	1492
3063.3	1534
3064.19	1495
3065.08	1486
3065.97	1506
3066.86	1530
3067.75	1525
3068.64	1492
3069.53	1502
3070.42	1512
3071.31	1485
3072.2	1499
3073.08	1495
3073.97	1513
3074.86	1500
3075.75	1526
3076.64	1501
3077.53	1462
3078.42	1501
3079.3	1506
3080.19	1491
3081.08	1494
3081.97	1520
3082.85	1490
3083.74	1490
3084.63	1495
3085.52	1487
3086.4	1503
3087.29	1508
3088.18	1482
3089.06	1470
3089.95	1499
3090.84	1512
3091.72	1496
3092.61	1505
3093.5	1521
3094.38	1525
3095.27	1521
3096.15	1506
3097.04	1506
3097.92	1529
3098.81	1503
3099.7	1509
3100.58	1505
3101.47	1477
3102.35	1508
3103.24	1485
3104.12	1506
3105.01	1468
3105.89	1488
3106.77	1516
3107.66	1475
3108.54	1529
3109.43	1502
3110.31	1494
3111.19	1514
3112.08	1525
3112.96	1549
3113.85	1515
3114.73	1512
3115.61	1526
3116.5	1488
3117.38	1480
3118.26	1511
3119.14	1493
3120.03	1511
3120.91	1517
3121.79	1490
3122.67	1503
3123.56	1515
3124.44	1485
3125.32	1484
3126.2	1496
3127.08	1491
3127.97	1500
3128.85	1510
3129.73	1511
3130.61	1519
3131.49	1462
3132.37	1481
3133.25	1514
3134.14	1511
3135.02	1489
3135.9	1486
3136.78	1461
3137.66	1495
3138.54	1500
3139.42	1513
3140.3	1498
3141.18	1501
3142.06	1496
3142.94	1531
3143.82	1497
3144.7	1493
3145.58	1489
3146.46	1490
3147.34	1476
3148.21	1465
3149.09	1497
3149.97	1475
3150.85	1463
3151.73	1507
3152.61	1485
3153.49	1487
3154.36	1485
3155.24	1496
3156.12	1525
3157	1507
3157.88	1474
3158.75	1489
3159.63	1475
3160.51	1470
3161.39	1495
3162.26	1480
3163.14	1515
3164.02	1476
3164.9	1498