File: S1_Raman_center_2700.txt
2204.67	1644
2205.67	1646
2206.68	1620
2207.68	1607
2208.68	1607
2209.69	1634
2210.69	1618
2211.7	1623
2212.7	1620
2213.7	1596
2214.71	1605
2215.71	1605
2216.71	1576
2217.72	1586
2218.72	1590
2219.72	1564
2220.72	1621
2221.73	1605
2222.73	1626
2223.73	1611
2224.73	1546
2225.73	1596
2226.73	1585
2227.74	1563
2228.74	1586
2229.74	1575
2230.74	1589
2231.74	1611
2232.74	1586
2233.74	1583
2234.74	1577
2235.74	1562
2236.74	1561
2237.74	1549
2238.74	1542
2239.74	1567
2240.74	1571
2241.74	1567
2242.74	1595
2243.74	1593
2244.74	1560
2245.74	1587
2246.74	1561
2247.74	1598
2248.74	1597
2249.73	1585
2250.73	1574
2251.73	1544
2252.73	1587
2253.73	1593
2254.73	1576
2255.72	1575
2256.72	1579
2257.72	1565
2258.72	1578
2259.71	1582
2260.71	1555
2261.71	1547
2262.7	1591
2263.7	1583
2264.7	1571
2265.69	1577
2266.69	1538
2267.68	1559
2268.68	1582
2269.68	1590
2270.67	1536
2271.67	1553
2272.66	1584
2273.66	1546
2274.65	1582
2275.65	1562
2276.64	1573
2277.64	1554
2278.63	1540
2279.63	1570
2280.62	1543
2281.61	1585
2282.61	1565
2283.6	1544
2284.6	1555
2285.59	1566
2286.58	1547
2287.58	1547
2288.57	1579
2289.56	1548
2290.56	1583
2291.55	1551
2292.54	1584
2293.53	1526
2294.53	1536
2295.52	1560
2296.51	1534
2297.5	1573
2298.49	1591
2299.49	1561
2300.48	1572
2301.47	1558
2302.46	1570
2303.45	1555
2304.44	1551
2305.43	1558
2306.42	1562
2307.42	1554
2308.41	1544
2309.4	1554
2310.39	1549
2311.38	1570
2312.37	1540
2313.36	1574
2314.35	1588
2315.34	1541
2316.32	1555
2317.31	1540
2318.3	1580
2319.29	1536
2320.28	1591
2321.27	1558
2322.26	1548
2323.25	1534
2324.24	1537
2325.22	1577
2326.21	1564
2327.2	1564
2328.19	1563
2329.17	1594
2330.16	1570
2331.15	1612
2332.14	1602
2333.12	1594
2334.11	1603
2335.1	1546
2336.08	1535
2337.07	1549
2338.06	1578
2339.04	1523
2340.03	1571
2341.02	1529
2342	1576
2342.99	1522
2343.97	1537
2344.96	1554
2345.94	1554
2346.93	1553
2347.92	1596
2348.9	1546
2349.88	1578
2350.87	1562
2351.85	1553
2352.84	1546
2353.82	1548
2354.81	1581
2355.79	1553
2356.78	1537
2357.76	1555
2358.74	1531
2359.73	1542
2360.71	1546
2361.69	1556
2362.68	1564
2363.66	1555
2364.64	1539
2365.62	1539
2366.61	1546
2367.59	1549
2368.57	1529
2369.55	1565
2370.54	1565
2371.52	1577
2372.5	1544
2373.48	1539
2374.46	1532
2375.44	1542
2376.43	1561
2377.41	1563
2378.39	1551
2379.37	1543
2380.35	1532
2381.33	1541
2382.31	1541
2383.29	1525
2384.27	1556
2385.25	1542
2386.23	1551
2387.21	1555
2388.19	1559
2389.17	1597
2390.15	1570
2391.13	1539
2392.11	1559
2393.09	1553
2394.06	1559
2395.04	1550
2396.02	1532
2397	1533
2397.98	1522
2398.96	1527
2399.94	1554
2400.91	1527
2401.89	1574
2402.87	1535
2403.85	1561
2404.82	1523
2405.8	1539
2406.78	1522
2407.75	1518
2408.73	1577
2409.71	1513
2410.69	1571
2411.66	1523
2412.64	1550
2413.61	1587
2414.59	1533
2415.57	1552
2416.54	1539
2417.52	1502
2418.49	1508
2419.47	1538
2420.44	1514
2421.42	1552
2422.39	1533
2423.37	1544
2424.34	1542
2425.32	1553
2426.29	1566
2427.27	1517
2428.24	1498
2429.22	1533
2430.19	1573
2431.16	1521
2432.14	1520
2433.11	1547
2434.08	1541
2435.06	1567
2436.03	1539
2437	1526
2437.98	1562
2438.95	1569
2439.92	1546
2440.89	1541
2441.87	1537
2442.84	1543
2443.81	1539
2444.78	1535
2445.76	1533
2446.73	1575
2447.7	1571
2448.67	1540
2449.64	1545
2450.61	1523
2451.58	1561
2452.55	1580
2453.53	1531
2454.5	1548
2455.47	1535
2456.44	1538
2457.41	1541
2458.38	1540
2459.35	1543
2460.32	1525
2461.29	1560
2462.26	1592
2463.23	1534
2464.2	1497
2465.16	1527
2466.13	1567
2467.1	1553
2468.07	1534
2469.04	1562
2470.01	1574
2470.98	1520
2471.95	1569
2472.91	1511
2473.88	1541
2474.85	1549
2475.82	1563
2476.79	1555
2477.75	1551
2478.72	1542
2479.69	1533
2480.65	1582
2481.62	1504
2482.59	1555
2483.56	1551
2484.52	1563
2485.49	1550
2486.46	1524
2487.42	1553
2488.39	1491
2489.35	1550
2490.32	1547
2491.28	1553
2492.25	1548
2493.22	1523
2494.18	1525
2495.15	1555
2496.11	1524
2497.08	1521
2498.04	1547
2499.01	1566
2499.97	1551
2500.94	1527
2501.9	1543
2502.86	1548
2503.83	1507
2504.79	1534
2505.76	1540
2506.72	1540
2507.68	1534
2508.65	1574
2509.61	1581
2510.57	1565
2511.54	1540
2512.5	1535
2513.46	1583
2514.42	1535
2515.39	1553
2516.35	1539
2517.31	1508
2518.27	1574
2519.23	1537
2520.2	1539
2521.16	1569
2522.12	1527
2523.08	1523
2524.04	1511
2525	1558
2525.96	1528
2526.93	1526
2527.89	1538
2528.85	1521
2529.81	1510
2530.77	1532
2531.73	1527
2532.69	1547
2533.65	1531
2534.61	1539
2535.57	1538
2536.53	1487
2537.49	1515
2538.45	1496
2539.41	1520
2540.36	1533
2541.32	1538
2542.28	1516
2543.24	1547
2544.2	1547
2545.16	1490
2546.12	1511
2547.08	1525
2548.03	1501
2548.99	1524
2549.95	1511
2550.91	1521
2551.86	1572
2552.82	1522
2553.78	1527
2554.74	1520
2555.69	1555
2556.65	1502
2557.61	1551
2558.56	1554
2559.52	1518
2560.48	1528
2561.43	1541
2562.39	1537
2563.35	1538
2564.3	1544
2565.26	1510
2566.21	1524
2567.17	1508
2568.12	1540
2569.08	1550
2570.03	1548
2570.99	1543
2571.94	1507
2572.9	1535
2573.85	1539
2574.81	1534
2575.76	1555
2576.72	1522
2577.67	1525
2578.62	1584
2579.58	1493
2580.53	1515
2581.49	1513
2582.44	1535
2583.39	1500
2584.35	1506
2585.3	1547
2586.25	1523
2587.2	1533
2588.16	1523
2589.11	1564
2590.06	1544
2591.01	1549
2591.97	1533
2592.92	1508
2593.87	1527
2594.82	1549
2595.77	1534
2596.73	1574
2597.68	1543
2598.63	1526
2599.58	1529
2600.53	1544
2601.48	1525
2602.43	1512
2603.38	1529
2604.33	1532
2605.28	1532
2606.23	1519
2607.18	1525
2608.14	1549
2609.08	1549
2610.03	1545
2610.98	1506
2611.93	1529
2612.88	1544
2613.83	1513
2614.78	1513
2615.73	1523
2616.68	1515
2617.63	1543
2618.58	1523
2619.53	1532
2620.47	1507
2621.42	1515
2622.37	1553
2623.32	1570
2624.27	1519
2625.21	1505
2626.16	1531
2627.11	1537
2628.06	1516
2629	1545
2629.95	1547
2630.9	1516
2631.84	1505
2632.79	1507
2633.74	1535
2634.68	1495
2635.63	1517
2636.58	1523
2637.52	1501
2638.47	1519
2639.42	1526
2640.36	1529
2641.31	1520
2642.25	1497
2643.2	1554
2644.14	1519
2645.09	1507
2646.03	1529
2646.98	1535
2647.92	1531
2648.87	1525
2649.81	1547
2650.76	1514
2651.7	1506
2652.64	1541
2653.59	1531
2654.53	1520
2655.48	1527
2656.42	1556
2657.36	1511
2658.31	1530
2659.25	1537
2660.19	1517
2661.14	1555
2662.08	1540
2663.02	1556
2663.96	1556
2664.91	1539
2665.85	1531
2666.79	1537
2667.73	1561
2668.67	1551
2669.62	1558
2670.56	1504
2671.5	1533
2672.44	1546
2673.38	1571
2674.32	1522
2675.26	1580
2676.21	1518
2677.15	1559
2678.09	1537
2679.03	1543
2679.97	1534
2680.91	1531
2681.85	1550
2682.79	1544
2683.73	1567
2684.67	1569
2685.61	1534
2686.55	1541
2687.49	1561
2688.43	1557
2689.37	1549
2690.31	1543
2691.24	1543
2692.18	1553
2693.12	1567
2694.06	1567
2695	1544
2695.94	1569
2696.88	1571
2697.81	1580
2698.75	1557
2699.69	1582
2700.63	1566
2701.56	1545
2702.5	1545
2703.44	1563
2704.38	1565
2705.31	1547
2706.25	1578
2707.19	1580
2708.12	1555
2709.06	1591
2710	1584
2710.93	1601
2711.87	1583
2712.81	1595
2713.74	1568
2714.68	1591
2715.61	1619
2716.55	1583
2717.48	1602
2718.42	1592
2719.36	1647
2720.29	1603
2721.23	1571
2722.16	1563
2723.09	1640
2724.03	1634
2724.96	1615
2725.9	1627
2726.83	1615
2727.77	1619
2728.7	1606
2729.63	1641
2730.57	1629
2731.5	1639
2732.44	1638
2733.37	1668
2734.3	1621
2735.24	1649
2736.17	1589
2737.1	1644
2738.03	1663
2738.97	1604
2739.9	1612
2740.83	1632
2741.76	1625
2742.7	1620
2743.63	1625
2744.56	1595
2745.49	1620
2746.42	1631
2747.35	1625
2748.29	1611
2749.22	1607
2750.15	1638
2751.08	1575
2752.01	1612
2752.94	1581
2753.87	1584
2754.8	1595
2755.73	1595
2756.66	1607
2757.59	1608
2758.52	1604
2759.45	1612
2760.38	1574
2761.31	1590
2762.24	1587
2763.17	1582
2764.1	1569
2765.03	1616
2765.96	1603
2766.89	1563
2767.82	1566
2768.75	1559
2769.67	1587
2770.6	1566
2771.53	1535
2772.46	1553
2773.39	1529
2774.31	1576
2775.24	1580
2776.17	1637
2777.1	1561
2778.03	1557
2778.95	1525
2779.88	1537
2780.81	1596
2781.73	1532
2782.66	1548
2783.59	1547
2784.51	1539
2785.44	1573
2786.37	1558
2787.29	1542
2788.22	1542
2789.15	1528
2790.07	1561
2791	1546
2791.92	1542
2792.85	1550
2793.77	1522
2794.7	1519
2795.62	1524
2796.55	1547
2797.47	1549
2798.4	1542
2799.32	1530
2800.25	1648
2801.17	1526
2802.1	1563
2803.02	1503
2803.94	1524
2804.87	1509
2805.79	1562
2806.72	1530
2807.64	1527
2808.56	1503
2809.49	1515
2810.41	1509
2811.33	1526
2812.26	1508
2813.18	1524
2814.1	1523
2815.02	1518
2815.95	1507
2816.87	1519
2817.79	1507
2818.71	1493
2819.63	1498
2820.56	1544
2821.48	1515
2822.4	1527
2823.32	1551
2824.24	1524
2825.16	1516
2826.08	1531
2827.01	1520
2827.93	1518
2828.85	1527
2829.77	1483
2830.69	1514
2831.61	1507
2832.53	1488
2833.45	1524
2834.37	1522
2835.29	1478
2836.21	1495
2837.13	1520
2838.05	1502
2838.97	1514
2839.89	1498
2840.81	1503
2841.73	1503
2842.64	1529
2843.56	1510
2844.48	1530
2845.4	1511
2846.32	1525
2847.24	1488
2848.16	1548
2849.07	1510
2849.99	1499
2850.91	1555
2851.83	1478
2852.74	1505
2853.66	1489
2854.58	1514
2855.5	1524
2856.41	1495
2857.33	1501
2858.25	1528
2859.16	1518
2860.08	1501
2861	1518
2861.91	1508
2862.83	1519
2863.75	1475
2864.66	1503
2865.58	1546
2866.49	1528
2867.41	1531
2868.33	1487
2869.24	1516
2870.16	1507
2871.07	1536
2871.99	1491
2872.9	1509
2873.82	1520
2874.73	1526
2875.65	1530
2876.56	1482
2877.47	1530
2878.39	1485
2879.3	1509
2880.22	1542
2881.13	1535
2882.04	1502
2882.96	1548
2883.87	1508
2884.78	1520
2885.7	1531
2886.61	1522
2887.52	1516
2888.44	1514
2889.35	1517
2890.26	1515
2891.17	1505
2892.09	1518
2893	1534
2893.91	1500
2894.82	1507
2895.74	1516
2896.65	1492
2897.56	1517
2898.47	1539
2899.38	1486
2900.29	1486
2901.21	1505
2902.12	1486
2903.03	1541
2903.94	1499
2904.85	1515
2905.76	1524
2906.67	1512
2907.58	1536
2908.49	1488
2909.4	1505
2910.31	1499
2911.22	1494
2912.13	1513
2913.04	1555
2913.95	1527
2914.86	1517
2915.77	1530
2916.68	1492
2917.59	1540
2918.5	1526
2919.4	1521
2920.31	1477
2921.22	1502
2922.13	1514
2923.04	1522
2923.95	1513
2924.86	1501
2925.76	1551
2926.67	1501
2927.58	1496
2928.49	1476
2929.39	1487
2930.3	1516
2931.21	1517
2932.12	1516
2933.02	1495
2933.93	1459
2934.84	1506
2935.74	1520
2936.65	1519
2937.56	1476
2938.46	1502
2939.37	1521
2940.28	1501
2941.18	1491
2942.09	1501
2942.99	1492
2943.9	1492
2944.8	1479
2945.71	1511
2946.61	1470
2947.52	1499
2948.42	1503
2949.33	1493
2950.23	1519
2951.14	1504
2952.04	1504
2952.95	1515
2953.85	1524
2954.76	1517
2955.66	1527
2956.56	1500
2957.47	1503
2958.37	1534
2959.28	1512
2960.18	1504
2961.08	1470
2961.99	1518
2962.89	1493
2963.79	1523
2964.7	1496
2965.6	1506
2966.5	1499
2967.4	1509
2968.31	1482
2969.21	1498
2970.11	1513
2971.01	1509
2971.91	1476
2972.82	1484
2973.72	1496
2974.62	1515
2975.52	1504
2976.42	1501
2977.32	1492
2978.23	1533
2979.13	1507
2980.03	1511
2980.93	1497
2981.83	1495
2982.73	1535
2983.63	1506
2984.53	1507
2985.43	1525
2986.33	1508
2987.23	1517
2988.13	1518
2989.03	1503
2989.93	1509
2990.83	1516
2991.73	1504
2992.63	1505
2993.53	1477
2994.43	1537
2995.32	1516
2996.22	1524
2997.12	1487
2998.02	1506
2998.92	1528
2999.82	1510
3000.72	1484
3001.61	1525
3002.51	1501
3003.41	1492
3004.31	1502
3005.21	1503
3006.1	1541
3007	1485
3007.9	1494
3008.79	1499
3009.69	1503
3010.59	1487
3011.49	1497
3012.38	1463
3013.28	1512
3014.18	1495
3015.07	1518
3015.97	1479
3016.86	1500
3017.76	1503
3018.66	1493
3019.55	1502
3020.45	1506
3021.34	1499
3022.24	1523
3023.13	1464
3024.03	1478
3024.92	1495
3025.82	1501
3026.71	1474
3027.61	1498
3028.5	1493
3029.4	1521
3030.29	1499
3031.19	1491
3032.08	1485
3032.97	1530
3033.87	1518
3034.76	1472
3035.66	1487
3036.55	1514
3037.44	1492
3038.34	1520
3039.23	1524
3040.12	1517
3041.01	1510
3041.91	1466
3042.8	1480
3043.69	1511
3044.59	1478
3045.48	1491
3046.37	1485
3047.26	1501
3048.15	1501
3049.05	1463
3049.94	1508
3050.83	1495
3051.72	1505
3052.61	1509
3053.5	1482
3054.4	1506
3055.29	1518
3056.18	1497
3057.07	1477
3057.96	1501
3058.85	1492
3059.74	1476
3060.63	1478
3061.52	1510
3062.41	1507
3063.3	1483
3064.19	1464
3065.08	1534
3065.97	1487
3066.86	1540
3067.75	1491
3068.64	1499
3069.53	1495
3070.42	1505
3071.31	1516
3072.2	1482
3073.08	1509
3073.97	1501
3074.86	1494
3075.75	1512
3076.64	1510
3077.53	1478
3078.42	1483
3079.3	1517
3080.19	1467
3081.08	1511
3081.97	1507
3082.85	1484
3083.74	1521
3084.63	1501
3085.52	1480
3086.4	1516
3087.29	1501
3088.18	1494
3089.06	1494
3089.95	1489
3090.84	1507
3091.72	1512
3092.61	1504
3093.5	1506
3094.38	1484
3095.27	1530
3096.15	1490
3097.04	1486
3097.92	1485
3098.81	1487
3099.7	1499
3100.58	1511
3101.47	1490
3102.35	1474
3103.24	1480
3104.12	1518
3105.01	1491
3105.89	1487
3106.77	1477
3107.66	1508
3108.54	1498
3109.43	1507
3110.31	1480
3111.19	1511
3112.08	1493
3112.96	1507
3113.85	1522
3114.73	1508
3115.61	1475
3116.5	1515
3117.38	1484
3118.26	1495
3119.14	1486
3120.03	1488
3120.91	1480
3121.79	1499
3122.67	1527
3123.56	1506
3124.44	1484
3125.32	1491
3126.2	1511
3127.08	1467
3127.97	1524
3128.85	1489
3129.73	1483
3130.61	1502
3131.49	1477
3132.37	1512
3133.25	1487
3134.14	1484
3135.02	1488
3135.9	1458
3136.78	1471
3137.66	1480
3138.54	1503
3139.42	1504
3140.3	1505
3141.18	1476
3142.06	1524
3142.94	1555
3143.82	1475
3144.7	1488
3145.58	1467
3146.46	1497
3147.34	1472
3148.21	1496
3149.09	1495
3149.97	1498
3150.85	1490
3151.73	1477
3152.61	1458
3153.49	1476
3154.36	1503
3155.24	1489
3156.12	1485
3157	1495
3157.88	1504
3158.75	1499
3159.63	1487
3160.51	1491
3161.39	1472
3162.26	1488
3163.14	1482
3164.02	1479
3164.9	1486